TrialIndex,Condition,TrialType,fix_duration,stim_duration,stimPicLeft,stimPicRight,stimPicMid,Ans,fixStart,stimStart,keyResp,resp,respCORR,respRT,IDNO,Run
0,OneBack,NoGo,1.9954350870919408,1.0045649129080592,c:\Users\gooda\Documents\GitHub\THINCLabTestRepo\Tasks\taskScripts//resources//ZeroBack_Task//stimuli//circle.png,c:\Users\gooda\Documents\GitHub\THINCLabTestRepo\Tasks\taskScripts//resources//ZeroBack_Task//stimuli//square.png,,NA,11.300882299998193,13.372255499998573,None,None,,nan,001,1
1,OneBack,NoGo,2.1515929727227627,0.8484070272772373,c:\Users\gooda\Documents\GitHub\THINCLabTestRepo\Tasks\taskScripts//resources//ZeroBack_Task//stimuli//circle.png,c:\Users\gooda\Documents\GitHub\THINCLabTestRepo\Tasks\taskScripts//resources//ZeroBack_Task//stimuli//triangle.png,,NA,14.395677499996964,16.603002400006517,None,None,,nan,001,1
2,OneBack,OneBack,1.1407893801613525,4.859210619838647,?,?,c:\Users\gooda\Documents\GitHub\THINCLabTestRepo\Tasks\taskScripts//resources//ZeroBack_Task//stimuli//circle.png,left,17.463319400005275,18.638577999998233,None,None,0,nan,001,1
3,OneBack,NoGo,2.1958328667684435,0.8041671332315565,c:\Users\gooda\Documents\GitHub\THINCLabTestRepo\Tasks\taskScripts//resources//ZeroBack_Task//stimuli//square.png,c:\Users\gooda\Documents\GitHub\THINCLabTestRepo\Tasks\taskScripts//resources//ZeroBack_Task//stimuli//circle.png,,NA,23.51970309999888,25.76448330000858,None,None,,nan,001,1
4,OneBack,NoGo,2.0911534350013037,0.9088465649986963,c:\Users\gooda\Documents\GitHub\THINCLabTestRepo\Tasks\taskScripts//resources//ZeroBack_Task//stimuli//triangle.png,c:\Users\gooda\Documents\GitHub\THINCLabTestRepo\Tasks\taskScripts//resources//ZeroBack_Task//stimuli//square.png,,NA,26.585917999997037,28.727534600009676,None,None,,nan,001,1
5,OneBack,NoGo,1.5305899830335536,1.4694100169664464,c:\Users\gooda\Documents\GitHub\THINCLabTestRepo\Tasks\taskScripts//resources//ZeroBack_Task//stimuli//circle.png,c:\Users\gooda\Documents\GitHub\THINCLabTestRepo\Tasks\taskScripts//resources//ZeroBack_Task//stimuli//square.png,,NA,29.65549020000617,31.234295100002782,None,None,,nan,001,1
6,OneBack,NoGo,2.4391491627785107,0.5608508372214893,c:\Users\gooda\Documents\GitHub\THINCLabTestRepo\Tasks\taskScripts//resources//ZeroBack_Task//stimuli//square.png,c:\Users\gooda\Documents\GitHub\THINCLabTestRepo\Tasks\taskScripts//resources//ZeroBack_Task//stimuli//triangle.png,,NA,32.72254570000223,35.208067100000335,None,None,,nan,001,1
7,OneBack,NoGo,2.4690406502940996,0.5309593497059004,c:\Users\gooda\Documents\GitHub\THINCLabTestRepo\Tasks\taskScripts//resources//ZeroBack_Task//stimuli//circle.png,c:\Users\gooda\Documents\GitHub\THINCLabTestRepo\Tasks\taskScripts//resources//ZeroBack_Task//stimuli//square.png,,NA,35.79050780000398,38.31796260000556,None,None,,nan,001,1
8,OneBack,OneBack,1.7914441215435972,4.208555878456403,?,?,c:\Users\gooda\Documents\GitHub\THINCLabTestRepo\Tasks\taskScripts//resources//ZeroBack_Task//stimuli//square.png,right,38.87168150000798,40.702788800001144,None,None,0,nan,001,1
9,OneBack,NoGo,1.8457004147087526,1.1542995852912474,c:\Users\gooda\Documents\GitHub\THINCLabTestRepo\Tasks\taskScripts//resources//ZeroBack_Task//stimuli//square.png,c:\Users\gooda\Documents\GitHub\THINCLabTestRepo\Tasks\taskScripts//resources//ZeroBack_Task//stimuli//circle.png,,NA,44.92630150000332,46.827167600000394,None,None,,nan,001,1
10,OneBack,NoGo,2.2609477375418203,0.7390522624581797,c:\Users\gooda\Documents\GitHub\THINCLabTestRepo\Tasks\taskScripts//resources//ZeroBack_Task//stimuli//circle.png,c:\Users\gooda\Documents\GitHub\THINCLabTestRepo\Tasks\taskScripts//resources//ZeroBack_Task//stimuli//square.png,,NA,48.00885220000055,50.32152240000141,None,None,,nan,001,1
11,OneBack,NoGo,1.9161799388943461,1.0838200611056539,c:\Users\gooda\Documents\GitHub\THINCLabTestRepo\Tasks\taskScripts//resources//ZeroBack_Task//stimuli//triangle.png,c:\Users\gooda\Documents\GitHub\THINCLabTestRepo\Tasks\taskScripts//resources//ZeroBack_Task//stimuli//circle.png,,NA,51.07483860000502,53.042577800006256,None,None,,nan,001,1
12,OneBack,NoGo,1.6859062658947177,1.3140937341052823,c:\Users\gooda\Documents\GitHub\THINCLabTestRepo\Tasks\taskScripts//resources//ZeroBack_Task//stimuli//circle.png,c:\Users\gooda\Documents\GitHub\THINCLabTestRepo\Tasks\taskScripts//resources//ZeroBack_Task//stimuli//triangle.png,,NA,54.14239890000317,55.88480110000819,None,None,,nan,001,1
13,OneBack,NoGo,1.6208899598058064,1.3791100401941936,c:\Users\gooda\Documents\GitHub\THINCLabTestRepo\Tasks\taskScripts//resources//ZeroBack_Task//stimuli//circle.png,c:\Users\gooda\Documents\GitHub\THINCLabTestRepo\Tasks\taskScripts//resources//ZeroBack_Task//stimuli//triangle.png,,NA,57.22333790000994,58.895531500005745,None,None,,nan,001,1
14,OneBack,NoGo,1.8033685109329176,1.1966314890670824,c:\Users\gooda\Documents\GitHub\THINCLabTestRepo\Tasks\taskScripts//resources//ZeroBack_Task//stimuli//triangle.png,c:\Users\gooda\Documents\GitHub\THINCLabTestRepo\Tasks\taskScripts//resources//ZeroBack_Task//stimuli//circle.png,,NA,60.29163970000809,62.139199199998984,None,None,,nan,001,1
15,OneBack,NoGo,2.3461974184283125,0.6538025815716875,c:\Users\gooda\Documents\GitHub\THINCLabTestRepo\Tasks\taskScripts//resources//ZeroBack_Task//stimuli//triangle.png,c:\Users\gooda\Documents\GitHub\THINCLabTestRepo\Tasks\taskScripts//resources//ZeroBack_Task//stimuli//circle.png,,NA,63.35918450000463,65.75047790000099,None,None,,nan,001,1
16,OneBack,NoGo,2.0890022579825516,0.9109977420174484,c:\Users\gooda\Documents\GitHub\THINCLabTestRepo\Tasks\taskScripts//resources//ZeroBack_Task//stimuli//triangle.png,c:\Users\gooda\Documents\GitHub\THINCLabTestRepo\Tasks\taskScripts//resources//ZeroBack_Task//stimuli//circle.png,,NA,66.42827689999831,68.56632769999851,None,None,,nan,001,1
17,OneBack,NoGo,1.7427399735430678,1.2572600264569322,c:\Users\gooda\Documents\GitHub\THINCLabTestRepo\Tasks\taskScripts//resources//ZeroBack_Task//stimuli//square.png,c:\Users\gooda\Documents\GitHub\THINCLabTestRepo\Tasks\taskScripts//resources//ZeroBack_Task//stimuli//circle.png,,NA,69.49646110000322,71.28912610000407,None,None,,nan,001,1
18,OneBack,NoGo,2.164743521608467,0.8352564783915328,c:\Users\gooda\Documents\GitHub\THINCLabTestRepo\Tasks\taskScripts//resources//ZeroBack_Task//stimuli//square.png,c:\Users\gooda\Documents\GitHub\THINCLabTestRepo\Tasks\taskScripts//resources//ZeroBack_Task//stimuli//triangle.png,,NA,72.5633155000105,74.78377320000436,None,None,,nan,001,1
19,OneBack,NoGo,2.1637578048439807,0.8362421951560193,c:\Users\gooda\Documents\GitHub\THINCLabTestRepo\Tasks\taskScripts//resources//ZeroBack_Task//stimuli//circle.png,c:\Users\gooda\Documents\GitHub\THINCLabTestRepo\Tasks\taskScripts//resources//ZeroBack_Task//stimuli//triangle.png,,NA,75.64450120000402,77.86480340000708,None,None,,nan,001,1
20,OneBack,NoGo,2.020938417613145,0.9790615823868549,c:\Users\gooda\Documents\GitHub\THINCLabTestRepo\Tasks\taskScripts//resources//ZeroBack_Task//stimuli//triangle.png,c:\Users\gooda\Documents\GitHub\THINCLabTestRepo\Tasks\taskScripts//resources//ZeroBack_Task//stimuli//square.png,,NA,78.72485690000758,80.80033420000109,None,None,,nan,001,1
