Block,Number,reading subset,recall subset,condition,trial type,task,fixa,clue,word1,word2,word3,word4,word5,word6,word7,word8,word9,word10,word11,word12,word13,word14,word15,Question1,Question2,Question3,trial_pres_num,fixa1_onset,fixa1_durat,clue_onset,clue_durat,task_onset,task_durat,word1_onset,word2_onset,word3_onset,word4_onset,word5_onset,word6_onset,word7_onset,word8_onset,word9_onset,word10_onset,word11_onset,word12_onset,word13_onset,word14_onset,word15_onset,word_time,fixa2_onset,fixa2_durat,question1_onset,question1_offset,rating1,rating1_RT,question2_onset,question2_offset,rating2,rating2_RT,question3_onset,question3_offset,rating3,rating3_RT,ori_press_word,press_word,press_word_offset,RT,correct,KeyPress
1,2,2,,pure reading ,formal trial,reading,+,xxxxx,Emotions,are,thought,to result,from,evolution,because,they,provided,good,solutions to,the problems,that our,ancestors,faced.,How well did you focus on the reading task?,How well did you comprehend this sentence?,How familiar were you with the reading content?,1,0.05608879984356463,2.15,2.205897299805656,2,4.2059346998576075,1,5.20886219991371,5.805446799844503,6.400743099860847,7.00552919995971,7.602778699947521,8.207070200005546,8.803181499941275,9.400743899866939,10.004675199976191,10.601986199850217,11.208219399908558,11.803365899948403,12.400658999802545,13.005816899938509,13.603160999948159,0.6,14.207064599962905,2.93,17.127760799834505,21.165014899801463,4,4.036,21.165824399795383,25.19955789996311,4,4.032,25.200197799829766,29.220504299970344,4,4.019,,,,,,
1,49,49,25,conflict recall,formal trial,memory recall,+,hug,For,home,"storage,",apples,can be,held for,approximately,two,weeks,when,kept in,the coolest,part of,the,refrigerator.,How well did you focus on the memory recall task?,How vivid was your memory?,How similar was it to your previously generated memory?,2,29.270561899989843,3.0,32.26958859991282,2,34.270293599925935,1,35.271655599819496,35.86641709995456,36.472423599800095,37.06833749986254,37.666559299919754,38.26959369983524,38.868108899798244,39.473651099950075,40.07065059989691,40.67224959982559,41.2728269000072,41.8701080000028,42.47312149987556,43.07025989983231,43.666876799892634,0.6,44.271967199863866,1.58,45.8422322999686,49.86873929994181,4,4.025,49.869624599814415,53.90563669987023,4,4.034,53.906494199996814,57.94538829987869,4,4.037,,,,,,
1,74,,50,pure recall,formal trial,memory recall,+,street,xxxxxxxx,xxx,xxxxxxx,xx xxxxxx,xxxx,xxxxxxxxx,xxxxxxx,xxxx,xxxxxxxx,xxxx,xxxxxxxxx xx,xxx xxxxxxxx,xxxx xxx,xxxxxxxxx,xxxxx,How well did you focus on the memory recall task?,How vivid was your memory?,How similar was it to your previously generated memory?,3,57.98789509991184,1.95,59.937898699892685,2,61.93910570000298,1,62.93786899978295,63.533481899881735,64.14043799997307,64.73620929988101,65.33374589984305,65.93810869986191,66.5338984997943,67.13839869992808,67.73549769981764,68.33674429985695,68.94118379987776,69.53712719981559,70.14175969990902,70.73883009981364,71.33308479981497,0.6,71.93813139991835,1.77,73.69956889981404,77.73924429994076,4,4.037,77.74007479986176,81.77034519985318,4,4.029,81.77113989996724,85.79946409980766,4,4.027,,,,,,
1,22,22,,pure reading ,catch trial,reading,+,xxxx,In many,"countries,",driving,a truck,requires,a special,driving,"license, the",requirements,and,limitations,vary,with,each,jurisdiction.,How well did you focus on the reading task?,How well did you comprehend this sentence?,How familiar were you with the reading content?,4,85.84135010000318,1.15,86.98586299992166,2,88.98583959997632,1,89.98589299991727,90.58975039981306,91.18961229990236,91.79144649999216,92.38936279993504,92.98833299987018,93.5899594000075,94.19121129997075,94.79226249991916,95.39266029978171,95.98833789979108,96.59272919991054,97.18940439983271,97.79449819982983,98.3909353998024,0.6,98.98867649980821,1.13,100.11302209994756,104.14021219988354,4,4.026,104.14109679986723,108.1710312999785,4,4.028,108.17185929999687,112.20130939991213,4,4.028,and,,,,,
1,100,,,letter string,formal trial,xxxxxxxx,+,xxxxx,xxxxxxx,xxx,xxxx xx,x xxxxx,xxxxxx xx,xxxxxx,xxx,xxxxxxxxx,xxxxxxxxx xx,xxx xxxxxxxx,xxxxxxxxxxx,xxxx xx,xxxxxxx,xxx,xxxxxxxx,,,,5,112.224153699819,2.62,114.84173069987446,2,116.84296179981902,1,117.84198859985918,118.44580259989016,119.0425502997823,119.64008719986305,120.24309049989097,120.84194589988329,121.43849529977888,122.04280119994655,122.64148399978876,123.24345740000717,123.84161509992555,124.43793309992179,125.04221869981848,125.6405941999983,126.2443617999088,0.6,,,,,,,,,,,,,,,,,,,,
1,26,26,1,conflict reading,formal trial,reading,+,door,Brain,tissue,consumes,a large,amount of,energy in,proportion to,"its volume,",so large,brains,place,severe,metabolic,demands on,animals.,How well did you focus on the reading task?,How well did you comprehend this sentence?,How familiar were you with the reading content?,6,126.27905839984305,1.67,127.94481039978564,2,129.94734739977866,1,130.94697980000637,131.54934819997288,132.1479929999914,132.74858329980634,133.45604019984603,133.94528749980964,134.54996360000223,135.1497387997806,135.74433569982648,136.34877409995534,136.94596849987283,137.5492880998645,138.14653639984317,138.74517739983276,139.3485195999965,0.6,139.94511489989236,1.22,141.16073789983056,145.18903299979866,4,4.026,145.1897989998106,149.22995039983653,4,4.039,149.23072469979525,153.25790589977987,4,4.026,,,,,,
1,94,,70,pure recall,catch trial,memory recall,+,basket,xx xxxx,xxxxxxxxx,xxxxxxx,x xxxxx,xxxxxxxx,x xxxxxxx,xxxxxxx,xxxxxxx xxx,xxxxxxxxxxxx,xxx,xxxxxxxxxxx,xxxx,xxxx,xxxx,xxxxxxxxxxxx,How well did you focus on the memory recall task?,How vivid was your memory?,How similar was it to your previously generated memory?,7,153.29255309980363,1.77,155.05885689985007,2,157.18264929996803,1,158.0670417000074,158.6629801997915,159.25954349990934,159.8571643999312,160.46166409994476,161.05882019991986,161.6639101000037,162.2630425998941,162.85746499989182,163.4632711999584,164.05921419989318,164.66344779985957,165.26271159993485,165.85792639991269,166.46215919987299,0.6,167.05998379993252,2.18,169.23422369989567,173.27426239987835,4,4.038,173.27514749998227,177.31759849982336,4,4.041,177.31856619985774,181.3448435999453,4,4.025,xxxxxxxxxxx,,,,,
1,73,,49,pure recall,formal trial,memory recall,+,relative,xxxxxxx,xxx xxxx,xxxx xxx,xxxxxxxxxxxxx,xx,xxxxxxx,xxxxxxxxxxxx,xxxxxx,xxxxx,xxx xxx,xxx xxxx,xxxxxxxx,xx xxx,xxxxxxxx,xxxxxxx,How well did you focus on the memory recall task?,How vivid was your memory?,How similar was it to your previously generated memory?,8,181.38638129993342,1.44,182.82299399981275,2,184.82348039979115,1,185.8248794998508,186.42308699991554,187.0259380999487,187.6220949999988,188.22591689997353,188.82304579997435,189.4211116998922,190.02761200000532,190.62444169982336,191.2259158999659,191.8246239,192.42143399990164,193.02508749999106,193.62260679993778,194.22814609995112,0.6,194.82447679992765,1.78,196.59805319993757,200.63698859978467,4,4.038,200.63790489989333,204.66493269987404,4,4.026,204.6658835997805,208.70544639998116,4,4.038,,,,,,
1,46,46,22,conflict reading,catch trial,reading,+,popcorn,Professors,often,conduct,original,research,and may,mentor and,supervise,graduate,students,conducting,research for,a thesis,or,dissertation.,How well did you focus on the reading task?,How well did you comprehend this sentence?,How familiar were you with the reading content?,9,208.74018500000238,2.55,211.28895499999635,2,213.29074309999123,1,214.2902346998453,214.88865999993868,215.49171619978733,216.08842259994708,216.6851555998437,217.28982710000128,217.88623929978348,218.49045509984717,219.0875126000028,219.68482799991034,220.28962119994685,220.88701529987156,221.4839323000051,222.0888009998016,222.6865959998686,0.6,223.29140819981694,1.03,224.31185559998266,228.35263059986755,4,4.039,228.35361230000854,232.37999059981667,4,4.025,232.3808908998035,236.41427929978818,4,4.032,original,,,,,
1,98,,,letter string,formal trial,xxxxxxxx,+,xxxxx,xxxxx,xxxxxx,xxxxxxxx,x xxxxx,xxxxxx xx,xxxxxx xx,xxxxxxxxxx xx,xxx xxxxxx,xx xxxxx,xxxxxx,xxxxx,xxxxxx,xxxxxxxxx,xxxxxxx xx,xxxxxxx,,,,10,236.4351100998465,1.64,238.07535289996304,2,240.07444449979812,1,241.07539829984307,241.67222770000808,242.2695402998943,242.87534079980105,243.47031089989468,244.0741746998392,244.67277929978445,245.26898159994744,245.87455409998074,246.47028749994934,247.07602649996988,247.67253129999153,248.27453199983574,248.88711929996498,249.47126799984835,0.6,,,,,,,,,,,,,,,,,,,,
Block,Number,reading subset,recall subset,condition,trial type,task,fixa,clue,word1,word2,word3,word4,word5,word6,word7,word8,word9,word10,word11,word12,word13,word14,word15,Question1,Question2,Question3,trial_pres_num,fixa1_onset,fixa1_durat,clue_onset,clue_durat,task_onset,task_durat,word1_onset,word2_onset,word3_onset,word4_onset,word5_onset,word6_onset,word7_onset,word8_onset,word9_onset,word10_onset,word11_onset,word12_onset,word13_onset,word14_onset,word15_onset,word_time,fixa2_onset,fixa2_durat,question1_onset,question1_offset,rating1,rating1_RT,question2_onset,question2_offset,rating2,rating2_RT,question3_onset,question3_offset,rating3,rating3_RT,ori_press_word,press_word,press_word_offset,RT,correct,KeyPress
Block,Number,reading subset,recall subset,condition,trial type,task,fixa,clue,word1,word2,word3,word4,word5,word6,word7,word8,word9,word10,word11,word12,word13,word14,word15,Question1,Question2,Question3,trial_pres_num,fixa1_onset,fixa1_durat,clue_onset,clue_durat,task_onset,task_durat,word1_onset,word2_onset,word3_onset,word4_onset,word5_onset,word6_onset,word7_onset,word8_onset,word9_onset,word10_onset,word11_onset,word12_onset,word13_onset,word14_onset,word15_onset,word_time,fixa2_onset,fixa2_durat,question1_onset,question1_offset,rating1,rating1_RT,question2_onset,question2_offset,rating2,rating2_RT,question3_onset,question3_offset,rating3,rating3_RT,ori_press_word,press_word,press_word_offset,RT,correct,KeyPress
Block,Number,reading subset,recall subset,condition,trial type,task,fixa,clue,word1,word2,word3,word4,word5,word6,word7,word8,word9,word10,word11,word12,word13,word14,word15,Question1,Question2,Question3,trial_pres_num,fixa1_onset,fixa1_durat,clue_onset,clue_durat,task_onset,task_durat,word1_onset,word2_onset,word3_onset,word4_onset,word5_onset,word6_onset,word7_onset,word8_onset,word9_onset,word10_onset,word11_onset,word12_onset,word13_onset,word14_onset,word15_onset,word_time,fixa2_onset,fixa2_durat,question1_onset,question1_offset,rating1,rating1_RT,question2_onset,question2_offset,rating2,rating2_RT,question3_onset,question3_offset,rating3,rating3_RT,ori_press_word,press_word,press_word_offset,RT,correct,KeyPress
Block,Number,reading subset,recall subset,condition,trial type,task,fixa,clue,word1,word2,word3,word4,word5,word6,word7,word8,word9,word10,word11,word12,word13,word14,word15,Question1,Question2,Question3,trial_pres_num,fixa1_onset,fixa1_durat,clue_onset,clue_durat,task_onset,task_durat,word1_onset,word2_onset,word3_onset,word4_onset,word5_onset,word6_onset,word7_onset,word8_onset,word9_onset,word10_onset,word11_onset,word12_onset,word13_onset,word14_onset,word15_onset,word_time,fixa2_onset,fixa2_durat,question1_onset,question1_offset,rating1,rating1_RT,question2_onset,question2_offset,rating2,rating2_RT,question3_onset,question3_offset,rating3,rating3_RT,ori_press_word,press_word,press_word_offset,RT,correct,KeyPress
Block,Number,reading subset,recall subset,condition,trial type,task,fixa,clue,word1,word2,word3,word4,word5,word6,word7,word8,word9,word10,word11,word12,word13,word14,word15,Question1,Question2,Question3,trial_pres_num,fixa1_onset,fixa1_durat,clue_onset,clue_durat,task_onset,task_durat,word1_onset,word2_onset,word3_onset,word4_onset,word5_onset,word6_onset,word7_onset,word8_onset,word9_onset,word10_onset,word11_onset,word12_onset,word13_onset,word14_onset,word15_onset,word_time,fixa2_onset,fixa2_durat,question1_onset,question1_offset,rating1,rating1_RT,question2_onset,question2_offset,rating2,rating2_RT,question3_onset,question3_offset,rating3,rating3_RT,ori_press_word,press_word,press_word_offset,RT,correct,KeyPress
Block,Number,reading subset,recall subset,condition,trial type,task,fixa,clue,word1,word2,word3,word4,word5,word6,word7,word8,word9,word10,word11,word12,word13,word14,word15,Question1,Question2,Question3,trial_pres_num,fixa1_onset,fixa1_durat,clue_onset,clue_durat,task_onset,task_durat,word1_onset,word2_onset,word3_onset,word4_onset,word5_onset,word6_onset,word7_onset,word8_onset,word9_onset,word10_onset,word11_onset,word12_onset,word13_onset,word14_onset,word15_onset,word_time,fixa2_onset,fixa2_durat,question1_onset,question1_offset,rating1,rating1_RT,question2_onset,question2_offset,rating2,rating2_RT,question3_onset,question3_offset,rating3,rating3_RT,ori_press_word,press_word,press_word_offset,RT,correct,KeyPress
Block,Number,reading subset,recall subset,condition,trial type,task,fixa,clue,word1,word2,word3,word4,word5,word6,word7,word8,word9,word10,word11,word12,word13,word14,word15,Question1,Question2,Question3,trial_pres_num,fixa1_onset,fixa1_durat,clue_onset,clue_durat,task_onset,task_durat,word1_onset,word2_onset,word3_onset,word4_onset,word5_onset,word6_onset,word7_onset,word8_onset,word9_onset,word10_onset,word11_onset,word12_onset,word13_onset,word14_onset,word15_onset,word_time,fixa2_onset,fixa2_durat,question1_onset,question1_offset,rating1,rating1_RT,question2_onset,question2_offset,rating2,rating2_RT,question3_onset,question3_offset,rating3,rating3_RT,ori_press_word,press_word,press_word_offset,RT,correct,KeyPress
1,2,2,,pure reading ,formal trial,reading,+,xxxxx,Emotions,are,thought,to result,from,evolution,because,they,provided,good,solutions to,the problems,that our,ancestors,faced.,How well did you focus on the reading task?,How well did you comprehend this sentence?,How familiar were you with the reading content?,1,0.04196529998444021,2.15,2.1874343999661505,2,4.18758360017091,1,5.189984500175342,5.7918694000691175,6.391862099990249,6.988199100131169,7.590416500112042,8.187513000098988,8.79197910008952,9.389150900067762,9.986150900134817,10.592452100012451,11.187908499967307,11.792724900180474,12.38971250015311,12.986134400125593,13.592550600180402,0.6,14.187588999979198,2.93,17.113637499976903,21.13934570015408,4,4.025,21.14098280016333,25.05667209997773,5,3.908,25.113635800080374,28.508591199992225,1,3.386,,,,,,
1,49,49,25,conflict recall,formal trial,memory recall,+,hug,For,home,"storage,",apples,can be,held for,approximately,two,weeks,when,kept in,the coolest,part of,the,refrigerator.,How well did you focus on the memory recall task?,How vivid was your memory?,How similar was it to your previously generated memory?,2,29.077989500015974,3.0,32.07811590004712,2,34.07741260016337,1,35.079757099971175,35.6753901001066,36.27915209997445,36.87566200015135,37.4739204000216,38.07751620002091,38.67424469999969,39.278684800025076,39.875687200110406,40.47295409999788,41.07752720010467,41.67580580012873,42.280102299991995,42.87580829998478,43.47396149998531,0.6,44.07804220006801,1.58,45.649661200121045,49.66920780017972,4,4.018,49.66987860016525,53.703392000170425,4,4.033,53.70409220014699,57.74411100009456,4,4.039,,,,,,
1,74,,50,pure recall,formal trial,memory recall,+,street,xxxxxxxx,xxx,xxxxxxx,xx xxxxxx,xxxx,xxxxxxxxx,xxxxxxx,xxxx,xxxxxxxx,xxxx,xxxxxxxxx xx,xxx xxxxxxxx,xxxx xxx,xxxxxxxxx,xxxxx,How well did you focus on the memory recall task?,How vivid was your memory?,How similar was it to your previously generated memory?,3,57.780296799959615,1.95,59.732992300065234,2,61.734412000048906,1,62.73054480017163,63.3295188001357,63.9272630000487,64.53145740018226,65.12607850017957,65.73285150015727,66.33175959996879,66.92543509998359,67.53147929999977,68.12787920003757,68.73045230004936,69.32971710013226,69.92502170009539,70.53102680016309,71.12893490004353,0.6,71.73300470015965,1.77,73.49196670018137,77.51624500006437,4,4.022,77.51701020007022,81.55780240008608,4,4.04,81.5586433999706,85.59900390007533,4,4.04,,,,,,
1,22,22,,pure reading ,catch trial,reading,+,xxxx,In many,"countries,",driving,a truck,requires,a special,driving,"license, the",requirements,and,limitations,vary,with,each,jurisdiction.,How well did you focus on the reading task?,How well did you comprehend this sentence?,How familiar were you with the reading content?,4,85.63467850000598,1.15,86.77942280005664,2,88.77940550004132,1,89.77948090014979,90.38573099998757,90.98286750004627,91.58490779995918,92.1824779000599,92.78034880012274,93.38357050018385,93.98081020009704,94.58512760000303,95.18221120000817,95.77940350002609,96.38505060016178,96.9830030000303,97.5781223999802,98.18227019999176,0.6,98.78064130013809,1.13,99.906350400066,103.93946290016174,4,4.032,103.94009619997814,107.96952860010788,4,4.028,107.97022120002657,112.00909309997223,4,4.038,a special,,,,,
1,100,,,letter string,formal trial,xxxxxxxx,+,xxxxx,xxxxxxx,xxx,xxxx xx,x xxxxx,xxxxxx xx,xxxxxx,xxx,xxxxxxxxx,xxxxxxxxx xx,xxx xxxxxxxx,xxxxxxxxxxx,xxxx xx,xxxxxxx,xxx,xxxxxxxx,,,,5,112.02991050016135,2.62,114.64921590010636,2,116.6479659001343,1,117.65025770012289,118.24543450004421,118.85107760014944,119.44874620018527,120.04484020010568,120.6489809001796,121.24638450006023,121.84992490010336,122.44677060004324,123.04404810001142,123.6482109001372,124.24557270016521,124.84986190008931,125.44713840004988,126.04547900008038,0.6,,,,,,,,,,,,,,,,,,,,
1,26,26,1,conflict reading,formal trial,reading,+,door,Brain,tissue,consumes,a large,amount of,energy in,proportion to,"its volume,",so large,brains,place,severe,metabolic,demands on,animals.,How well did you focus on the reading task?,How well did you comprehend this sentence?,How familiar were you with the reading content?,6,126.28160020010546,1.67,127.94711020006798,2,129.94712330005132,1,130.94733530003577,131.5512048001401,132.1484197000973,132.74786850018427,133.3503853001166,133.9490871001035,134.55118319997564,135.14846440008841,135.74653730005957,136.34974480001256,136.94711569999345,137.55132490000688,138.14851450012065,138.74556980002671,139.3519470000174,0.6,139.94936680002138,1.22,141.1632703000214,145.20426640007645,4,4.039,145.204909699969,149.24619249999523,4,4.04,149.24699250003323,153.28790270001628,4,4.04,,,,,,
1,94,,70,pure recall,catch trial,memory recall,+,basket,xx xxxx,xxxxxxxxx,xxxxxxx,x xxxxx,xxxxxxxx,x xxxxxxx,xxxxxxx,xxxxxxx xxx,xxxxxxxxxxxx,xxx,xxxxxxxxxxx,xxxx,xxxx,xxxx,xxxxxxxxxxxx,How well did you focus on the memory recall task?,How vivid was your memory?,How similar was it to your previously generated memory?,7,153.32242670003325,1.77,155.09369710017927,2,157.0863533001393,1,158.0864087000955,158.69259480014443,159.2878165000584,159.89194240001962,160.49027519999072,161.0885509001091,161.69059370015748,162.28848990006372,162.89208750007674,163.48925910005346,164.08651880011894,164.6905873999931,165.2880518999882,165.89203200000338,166.49185370001942,0.6,167.08866919996217,2.18,169.2640980000142,173.28899260004982,4,4.023,173.28975510015152,177.32295599998906,4,4.032,177.3235922001768,181.35226429998875,4,4.028,xxxxxxx,,,,,
1,73,,49,pure recall,formal trial,memory recall,+,relative,xxxxxxx,xxx xxxx,xxxx xxx,xxxxxxxxxxxxx,xx,xxxxxxx,xxxxxxxxxxxx,xxxxxx,xxxxx,xxx xxx,xxx xxxx,xxxxxxxx,xx xxx,xxxxxxxx,xxxxxxx,How well did you focus on the memory recall task?,How vivid was your memory?,How similar was it to your previously generated memory?,8,181.38621999998577,1.44,182.82409530016594,2,184.8230624999851,1,185.82331480016,186.42039109999314,187.02471530018374,187.6238673001062,188.22676079999655,188.82527020014822,189.4205251999665,190.02441930002533,190.62185500003397,191.22673370013945,191.8232740999665,192.42032080003992,193.02540359995328,193.62193270004354,194.22829100000672,0.6,194.825422400143,1.78,196.59789029997773,200.63121190015227,4,4.031,200.63197330012918,204.6569318000693,4,4.024,204.6575800999999,208.69164490001276,4,4.033,,,,,,
1,46,46,22,conflict reading,catch trial,reading,+,popcorn,Professors,often,conduct,original,research,and may,mentor and,supervise,graduate,students,conducting,research for,a thesis,or,dissertation.,How well did you focus on the reading task?,How well did you comprehend this sentence?,How familiar were you with the reading content?,9,208.7264078001026,2.55,211.27724299998954,2,213.2760232000146,1,214.276118400041,214.8724301001057,215.47678020014428,216.07377260015346,216.74738850002177,217.31822010013275,217.88729830016382,218.47667640005238,219.07369210012257,219.67244130000472,220.2764659000095,220.87449930002913,221.4779871001374,222.0739651999902,222.67111330013722,0.6,223.27536830003373,1.03,224.29807820008136,228.33882970013656,4,4.039,228.33956890017726,232.36575880018063,4,4.025,232.36640990013257,236.40164809999987,4,4.034,research,,,,,
1,98,,,letter string,formal trial,xxxxxxxx,+,xxxxx,xxxxx,xxxxxx,xxxxxxxx,x xxxxx,xxxxxx xx,xxxxxx xx,xxxxxxxxxx xx,xxx xxxxxx,xx xxxxx,xxxxxx,xxxxx,xxxxxx,xxxxxxxxx,xxxxxxx xx,xxxxxxx,,,,10,236.42276890017092,1.64,238.06035960000008,2,240.06094060000032,1,241.060354599962,241.65752380015329,242.2618207000196,242.86117090005428,243.46528090001084,244.06250710017048,244.65755550004542,245.26187230017968,245.86079830001108,246.46344550000504,247.0604195999913,247.6577479999978,248.26195279997773,248.8594255000353,249.4654991000425,0.6,,,,,,,,,,,,,,,,,,,,
1,27,27,3,conflict reading,formal trial,reading,+,gift,Horses,can,perform a,number of,mental,challenges,that include,food,procurement,and,identification,of individuals,within,a social,system.,How well did you focus on the reading task?,How well did you comprehend this sentence?,How familiar were you with the reading content?,11,249.55377690005116,1.61,251.15795570006594,2,253.1579219000414,1,254.15855260007083,254.76208040001802,255.35949679999612,255.96335330000147,256.5616030001547,257.15789280016907,257.7631477001123,258.36155589995906,258.9643888999708,259.56101140007377,260.15806769998744,260.7621102000121,261.3620260001626,261.9637341001071,262.56067050015554,0.6,263.1589009000454,1.13,264.2854486000724,268.3120762000326,3,4.026,268.31756550003774,270.7356531000696,6,2.409,272.28544869995676,273.57542150001973,5,1.282,,,,,,
1,53,53,28,conflict recall,formal trial,memory recall,+,ticket,Many,lakes are,artificial,and,constructed for,industrial or,agricultural,"use,",such as,electric,power,generation,or domestic,water,supply.,How well did you focus on the memory recall task?,How vivid was your memory?,How similar was it to your previously generated memory?,12,276.304290600121,2.63,278.9303675000556,2,280.93627770012245,1,281.93638440012,282.53530330001377,283.13191150012426,283.7359953999985,284.33319070003927,284.92950660013594,285.5344818001613,286.1324732999783,286.7360958000645,287.3332569000777,287.92983440007083,288.53464830014855,289.1320376000367,289.7366909000557,290.3331774000544,0.6,290.92970320000313,1.42,292.3459608000703,296.3688610000536,4,4.021,296.3696732001845,300.4016983001493,4,4.031,300.40237929997966,304.4313853001222,4,4.028,,,,,,
1,50,50,26,conflict recall,formal trial,memory recall,+,coffee,A halved,lemon,dipped in,salt or,baking,powder,is,used to,brighten,copper,"cookware,",as,the acid,dissolves,the tarnish.,How well did you focus on the memory recall task?,How vivid was your memory?,How similar was it to your previously generated memory?,13,304.4729442000389,1.75,306.2212614000309,2,308.22171150008217,1,309.22267170017585,309.8197814000305,310.42328260000795,311.02033870015293,311.62220069998875,312.22288800007664,312.8202448000666,313.4239096001256,314.02114100009203,314.6188012000639,315.22276709997095,315.8195485000033,316.42361870012246,317.0218805000186,317.6194561000448,0.6,318.2219593001064,2.02,320.23461599997245,324.2639519001823,4,4.028,324.2646644001361,328.29319120012224,4,4.028,328.2939532001037,332.3274330999702,4,4.032,,,,,,
1,101,,,letter string,formal trial,xxxxxxxx,+,xxxxx,xxxxxxx,xxx xx,xxxxxx,xxxxxx xx,xxxxx,xxxxxx,xx,xxxxxxx,xx xx,xxxxx,xxx,xxxxxxxx,xxxxxxxx,xxxxxxx,xxxxxxx,,,,14,332.3479800000787,1.81,334.1530274001416,2,336.1527572001796,1,337.1537958001718,337.7584260001313,338.3557105001528,338.95966160017997,339.55583840003237,340.15312599996105,340.7575153000653,341.35465290001594,341.9587599001825,342.5571545001585,343.1559375000652,343.7582364999689,344.354429700179,344.95882880012505,345.55686120013706,0.6,,,,,,,,,,,,,,,,,,,,
1,1,1,,pure reading ,formal trial,reading,+,xxxx,Posters,are also,used for,reproductions,of,"artwork,",particularly,famous,"works,",and are,low-cost,compared,to the,original,artwork.,How well did you focus on the reading task?,How well did you comprehend this sentence?,How familiar were you with the reading content?,15,345.9249981001485,1.23,347.1547020000871,2,349.1546632000245,1,350.1555246000644,350.7530074000824,351.35578460013494,351.95428840001114,352.551344800042,353.1546687001828,353.7516893001739,354.35594060015865,354.9539640999865,355.5519813001156,356.1529486000072,356.7505342999939,357.35457159997895,357.95293500018306,358.5505586999934,0.6,359.1531887999736,2.88,362.0266677001491,366.0631280001253,4,4.035,366.06381860002875,370.10478639998473,4,4.04,370.10543160000816,374.1328280000016,4,4.026,,,,,,
1,75,,51,pure recall,formal trial,memory recall,+,tree,xxxx xxx,xxxxxxx,xxxx xxx xx,xxxxxxxxxxx,xxxxxx,xxxxxx,xxxxxx xxx,xxxxxx,xxxxxxxx,xxxxx,xxxxxx,xxxxxxx xx,xxxxxxxxx,xxxxxx,xxx xxxxxx,How well did you focus on the memory recall task?,How vivid was your memory?,How similar was it to your previously generated memory?,16,374.1673624000978,1.15,375.31431970000267,2,377.3139849000145,1,378.31501530017704,378.9189943000674,379.51512310002,380.1121929001529,380.7161616999656,381.31564830010757,381.91864569997415,382.5150942001492,383.1127196000889,383.7162171001546,384.31344450009055,384.91766960010864,385.51516830013134,386.11365450010635,386.71659860014915,0.6,387.314085500082,1.24,388.5490333000198,392.5936946000438,4,4.043,392.59444350004196,396.6331083001569,4,4.038,396.6337967000436,400.6620630000252,4,4.027,,,,,,
1,76,,52,pure recall,formal trial,memory recall,+,fireplace,xxxxx,xxxxxxxx,xxx xxxx,xxxxxx,xxx,xxxx,xxxx,xxx xxxxx,xx,xxxxxxx,xx xxxx,xxxxxx,xx xxxxx,xxxx,xx xxxx,How well did you focus on the memory recall task?,How vivid was your memory?,How similar was it to your previously generated memory?,17,400.7374438000843,2.2,402.9319987001363,2,404.93283040006645,1,405.93218380003236,406.53632319997996,407.1360192000866,407.74070019996725,408.33782380004413,408.93511600000784,409.5385728001129,410.1354068000801,410.7389511000365,411.33599629998207,411.93548800004646,412.53802360012196,413.13478310010396,413.7395627000369,414.3376087001525,0.6,414.9346123000141,2.09,417.01911640004255,421.0525041001383,4,4.032,421.05336070014164,425.0800603001844,4,4.026,425.08092770003714,429.10853009996936,4,4.027,,,,,,
1,70,70,46,conflict recall,catch trial,memory recall,+,lime,The Oxford,English,Dictionary,remains,the most,comprehensive,and trusted,English,language,"dictionary,",with,revisions,and updates,added every,three months.,How well did you focus on the memory recall task?,How vivid was your memory?,How similar was it to your previously generated memory?,18,429.1495586000383,1.22,430.37198489997536,2,432.37089240015484,1,433.3734775001649,433.9697299001273,434.5683699999936,435.1715392000042,435.76815859996714,436.36458280007355,436.96956700016744,437.567474800162,438.1718598001171,438.7684094000142,439.36470280005597,439.96874810010195,440.5671934999991,441.1721034999937,441.7685104000848,0.6,442.3653708000202,2.13,444.4912320000585,448.53276860015467,4,4.035,448.53359160013497,452.5651781000197,4,4.031,452.5659303001594,456.60185780003667,4,4.035,remains,,,,,
1,97,,,letter string,formal trial,xxxxxxxx,+,xxxx,xxxxxxx,xxxxx xxxx,xxxxxxx,xxxxxxxxx,xxxx xxx,xxxxxxxxx,xxxxxxxx,xx xxxx,xxxxx,xxx,xxxxxxx,xxxxxxxxxx,xxxxxxxxxx,xxx xxxxxx,xxxxxxx,,,,19,456.6206384000834,2.89,459.5107183000073,2,461.50974839995615,1,462.5098894000985,463.11133400001563,463.71197980013676,464.31124150007963,464.90527690015733,465.51153440005146,466.1085636999924,466.71159059996717,467.31117260013707,467.90628350013867,468.51014839997515,469.10723700001836,469.71247790008783,470.3084954000078,470.90635569998994,0.6,,,,,,,,,,,,,,,,,,,,
1,25,25,2,conflict reading,formal trial,reading,+,party,Windows,often have,movable,coverings,such as,blinds or,curtains,to keep,light,"out,",provide,additional,"insulation,",and ensure,privacy.,How well did you focus on the reading task?,How well did you comprehend this sentence?,How familiar were you with the reading content?,20,470.9561736001633,2.49,473.44049470010214,2,475.4415184999816,1,476.44146770006046,477.0444669001736,477.64215010008775,478.2483716001734,478.8521038000472,479.44207670004107,480.0458502001129,480.64387840009294,481.24713809997775,481.8456886000931,482.44411840010434,483.1591406001244,483.64235990005545,484.24788499996066,484.84522520005703,0.6,485.44136400008574,2.97,488.4078451001551,492.43488670000806,4,4.025,492.4356313999742,496.4616868000012,4,4.025,496.46243520011194,500.48407240002416,4,4.021,,,,,,
1,51,51,27,conflict recall,formal trial,memory recall,+,city,Rattles,have,a dual,"function,",doubling,as teethers,as babies,"grow,",their,textured,surfaces,are,easy,on the,gums.,How well did you focus on the memory recall task?,How vivid was your memory?,How similar was it to your previously generated memory?,21,500.5210335000884,2.59,503.11001810012385,2,505.10771490004845,1,506.107909000013,506.70520500000566,507.3091147001833,507.9064692000393,508.5125249000266,509.10924560017884,509.70499270013534,510.31172480015084,510.90812540007755,511.5123332000803,512.1083963001147,512.7061191000976,513.3099752000999,513.9063528000843,514.5106729001272,0.6,515.1078352001496,2.91,518.0127059000079,522.0389407000039,4,4.025,522.0396088999696,526.0595399001613,4,4.019,526.0601753001101,530.101267100079,4,4.04,,,,,,
1,77,,53,pure recall,formal trial,memory recall,+,butterfly,xxxxx xxxx,xxxxxxxxxx,xxx xxxxxxxxx,xxxxxx,xxxx,xxxxxxxx,xxxxxxx,xxxxxxxxxx,xxx xxx xxx,xxxx xxxx,xxxxxxxxx,xxxxx,xxxxx,xxxxxxxx,xxxxxxxx,How well did you focus on the memory recall task?,How vivid was your memory?,How similar was it to your previously generated memory?,22,530.1361841000617,2.98,533.1153855000157,2,535.1153512999881,1,536.1171053000726,536.7133061001077,537.3174340999685,537.9157617001329,538.5129219000228,539.1168671001215,539.7124944000971,540.3169097001664,540.9139827999752,541.5115398000926,542.1168043001089,542.7130177000072,543.3099027001299,543.9157543999609,544.5129778000992,0.6,545.1171512999572,2.94,548.0478559001349,552.087850500131,4,4.038,552.0885885001626,556.1237486000173,4,4.034,556.1244865001645,560.157335099997,4,4.032,,,,,,
1,102,,,letter string,formal trial,xxxxxxxx,+,xxxx,xxxxxxxx,xxx,xxxxxxxxx,xxxx xx,xxxxxx,xxxx,xxx xxxx,xxxx xxxx,xxxxx xx,xxxxx,xxxxxx,xxx xxxxxx,xx,xxxxxxxx,xxxxxx,,,,23,560.1785985999741,2.77,562.9433634001762,2,564.9424436001573,1,565.9476860000286,566.5478835999966,567.1446697001811,567.749883600045,568.3456260000821,568.9494468001649,569.547586100176,570.1447856000159,570.7492142999545,571.344689700054,571.9497954000253,572.547061300138,573.1438921999652,573.7483046001289,574.3447702000849,0.6,,,,,,,,,,,,,,,,,,,,
1,52,52,29,conflict recall,formal trial,memory recall,+,landscape,Towers,are not,built,to be,habitable,but to,serve,other,various,"functions,",like,as a,structure for,telecommunication,purposes.,How well did you focus on the memory recall task?,How vivid was your memory?,How similar was it to your previously generated memory?,24,574.6095259999856,2.16,576.7707316000015,2,578.7707450001035,1,579.7689823999535,580.3661039001308,580.9635091000237,581.5691215000115,582.1648786000442,582.7699890001677,583.3672581000719,583.9647969000507,584.5677269001026,585.1660890001804,585.7692482999992,586.3669094000943,586.964153100038,587.5694971999619,588.1650278000161,0.6,588.7699619000778,2.8,591.5611974999774,595.6049302001484,4,4.042,595.6056707000826,599.6314360001124,4,4.025,599.6321132001467,603.6722224000841,4,4.039,,,,,,
1,29,29,5,conflict reading,formal trial,reading,+,house,Kettles,can be,heated,either by,being,placed,on,"a stove,",or by,their,own,internal,electric,heating,element.,How well did you focus on the reading task?,How well did you comprehend this sentence?,How familiar were you with the reading content?,25,603.7069493001327,1.9,605.6045733999927,2,607.6030501001514,1,608.6032146001235,609.2094106001314,609.8042886001058,610.4025538000278,611.0085187000223,611.6041272999719,612.2089287000708,612.8046862001065,613.4214642001316,614.0984170001466,614.6075916001573,615.2036692001857,615.8016121999826,616.4051558000501,617.0034046000801,0.6,617.6066607001703,1.66,619.2586191000883,623.2810184000991,4,4.021,623.2818179000169,627.3228855000343,4,4.04,627.323638800066,631.3503902000375,4,4.026,,,,,,
1,5,5,,pure reading ,formal trial,reading,+,xxxxx,Today most,newspapers,are published,"online,",with,frequent,updates,throughout,"the day, and",some have,abandoned,their,print,versions,entirely.,How well did you focus on the reading task?,How well did you comprehend this sentence?,How familiar were you with the reading content?,26,631.3852335000411,2.58,633.9644556001294,2,635.9614162000362,1,636.96136080008,637.567303400021,638.163402599981,638.7606675000861,639.3642923999578,639.9637213000096,640.5677700999659,641.1632874000352,641.7600722999778,642.3645522999577,642.9614832000807,643.5656040001195,644.1630906001665,644.7607068000361,645.3645153001416,0.6,645.9615031001158,2.39,648.346903800033,652.3862954000942,4,4.038,652.3872424999718,656.4270949000493,4,4.039,656.4279098999687,660.449151000008,4,4.02,,,,,,
1,99,,,letter string,formal trial,xxxxxxxx,+,xxxx,xxxxxx,xxx,xxxxxxx x,xxxxxx xx,xxxxxx,xxxxxxxxxx,xxxx xxxxxxx,xxxx,xxxxxxxxxxx,xxx,xxxxxxxxxxxxxx,xx xxxxxxxxxxx,xxxxxx,xxxxxxxx,xxxxxx,,,,27,660.469819100108,1.09,661.5608212000225,2,663.5589326999616,1,664.5610057001468,665.1585024001542,665.753265999956,666.3596022999845,666.955048300093,667.5604128001723,668.1565203999635,668.7536232999992,669.3600147999823,669.9560079001822,670.5615799000952,671.1575736000668,671.7540637999773,672.3580622000154,672.9553635001648,0.6,,,,,,,,,,,,,,,,,,,,
1,28,28,4,conflict reading,formal trial,reading,+,salad,Bullets,are,made in,a large,number of,shapes,and,materials,depending on,the intended,"application,",such as,hunting,and,training.,How well did you focus on the reading task?,How well did you comprehend this sentence?,How familiar were you with the reading content?,28,673.1861183999572,1.08,674.2632773001678,2,676.2611794001423,1,677.2609904001001,677.8650235000532,678.4642525000963,679.0671743999701,679.665660600178,680.2630752001423,680.8676698000636,681.4623461000156,682.0672323000617,682.6647626000922,683.2610767001752,683.8676716000773,684.4624723000452,685.0671362001449,685.6636151000857,0.6,686.2621592001524,1.77,688.0277899999637,692.05534670013,4,4.026,692.0561909000389,696.0951566000003,4,4.038,696.0960067999549,700.1223172000609,4,4.025,,,,,,
1,4,4,,pure reading ,formal trial,reading,+,xxxxx,Ankle,problems,are very,common,and,mild,pain,can often,be,treated,at home,though,it takes,time,to cure.,How well did you focus on the reading task?,How well did you comprehend this sentence?,How familiar were you with the reading content?,29,700.1590489000082,1.42,701.5748294000514,2,703.5740714001004,1,704.5755910000298,705.1813662999775,705.7755490001291,706.380159100052,706.978824699996,707.5757498000748,708.180673800176,708.7776315000374,709.3812084000092,709.9779563001357,710.5758700000588,711.1782784999814,711.7753670001402,712.372390500037,712.9767448001076,0.6,713.5740612000227,1.94,715.5107191000134,719.5393290000502,4,4.027,719.5401276999619,723.5825486001559,4,4.041,723.5835480999667,727.6168882001657,4,4.032,,,,,,
1,3,3,,pure reading ,formal trial,reading,+,xxxx,Toys for,infants,make use of,distinctive,"sounds,",bright,"colors, and",unique,"textures,",which,enable,infants to,recognize,shapes,and colors.,How well did you focus on the reading task?,How well did you comprehend this sentence?,How familiar were you with the reading content?,30,727.6582643999718,2.96,730.6170821001288,2,732.6167224000674,1,733.6171655000653,734.2147223001812,734.8189034999814,735.4152748000342,736.0125988000073,736.6166548000183,737.2145730999764,737.8218217000831,738.4147696001455,739.0130559999961,739.6172746999655,740.2141990000382,740.8197510000318,741.4188382001594,742.0123456001747,0.6,742.6191378000658,1.64,744.2499355999753,748.2833839000668,4,4.032,748.2841104001272,752.3245878000744,4,4.039,752.3253522000741,756.361974600004,4,4.036,,,,,,
Block,Number,reading subset,recall subset,condition,trial type,task,fixa,clue,word1,word2,word3,word4,word5,word6,word7,word8,word9,word10,word11,word12,word13,word14,word15,Question1,Question2,Question3,trial_pres_num,fixa1_onset,fixa1_durat,clue_onset,clue_durat,task_onset,task_durat,word1_onset,word2_onset,word3_onset,word4_onset,word5_onset,word6_onset,word7_onset,word8_onset,word9_onset,word10_onset,word11_onset,word12_onset,word13_onset,word14_onset,word15_onset,word_time,fixa2_onset,fixa2_durat,question1_onset,question1_offset,rating1,rating1_RT,question2_onset,question2_offset,rating2,rating2_RT,question3_onset,question3_offset,rating3,rating3_RT,ori_press_word,press_word,press_word_offset,RT,correct,KeyPress
Block,Number,reading subset,recall subset,condition,trial type,task,fixa,clue,word1,word2,word3,word4,word5,word6,word7,word8,word9,word10,word11,word12,word13,word14,word15,Question1,Question2,Question3,trial_pres_num,fixa1_onset,fixa1_durat,clue_onset,clue_durat,task_onset,task_durat,word1_onset,word2_onset,word3_onset,word4_onset,word5_onset,word6_onset,word7_onset,word8_onset,word9_onset,word10_onset,word11_onset,word12_onset,word13_onset,word14_onset,word15_onset,word_time,fixa2_onset,fixa2_durat,question1_onset,question1_offset,rating1,rating1_RT,question2_onset,question2_offset,rating2,rating2_RT,question3_onset,question3_offset,rating3,rating3_RT,ori_press_word,press_word,press_word_offset,RT,correct,KeyPress
1,2,2,,pure reading ,formal trial,reading,+,xxxxx,Emotions,are,thought,to result,from,evolution,because,they,provided,good,solutions to,the problems,that our,ancestors,faced.,How well did you focus on the reading task?,How well did you comprehend this sentence?,How familiar were you with the reading content?,1,0.047726500080898404,2.15,2.1941496001090854,2,4.193521999986842,1,5.193641599966213,5.798231600085273,6.395246000029147,6.992308800108731,7.597842999966815,8.193920300109312,8.797938600182533,9.39655419997871,9.993154400028288,10.597498800139874,11.193738900125027,11.79784100013785,12.396609100047499,12.992403900017962,13.596734600141644,0.6,20.63951910007745,2.93,20.707735300064087,23.38151600002311,5,2.666,23.385972800198942,24.506549700163305,5,1.115,25.11940440000035,25.763501200126484,4,0.636,,,,,,
Block,Number,reading subset,recall subset,condition,trial type,task,fixa,clue,word1,word2,word3,word4,word5,word6,word7,word8,word9,word10,word11,word12,word13,word14,word15,Question1,Question2,Question3,trial_pres_num,fixa1_onset,fixa1_durat,clue_onset,clue_durat,task_onset,task_durat,word1_onset,word2_onset,word3_onset,word4_onset,word5_onset,word6_onset,word7_onset,word8_onset,word9_onset,word10_onset,word11_onset,word12_onset,word13_onset,word14_onset,word15_onset,word_time,fixa2_onset,fixa2_durat,question1_onset,question1_offset,rating1,rating1_RT,question2_onset,question2_offset,rating2,rating2_RT,question3_onset,question3_offset,rating3,rating3_RT,ori_press_word,press_word,press_word_offset,RT,correct,KeyPress
Block,Number,reading subset,recall subset,condition,trial type,task,fixa,clue,word1,word2,word3,word4,word5,word6,word7,word8,word9,word10,word11,word12,word13,word14,word15,Question1,Question2,Question3,trial_pres_num,fixa1_onset,fixa1_durat,clue_onset,clue_durat,task_onset,task_durat,word1_onset,word2_onset,word3_onset,word4_onset,word5_onset,word6_onset,word7_onset,word8_onset,word9_onset,word10_onset,word11_onset,word12_onset,word13_onset,word14_onset,word15_onset,word_time,fixa2_onset,fixa2_durat,question1_onset,question1_offset,rating1,rating1_RT,question2_onset,question2_offset,rating2,rating2_RT,question3_onset,question3_offset,rating3,rating3_RT,ori_press_word,press_word,press_word_offset,RT,correct,KeyPress
Block,Number,reading subset,recall subset,condition,trial type,task,fixa,clue,word1,word2,word3,word4,word5,word6,word7,word8,word9,word10,word11,word12,word13,word14,word15,Question1,Question2,Question3,trial_pres_num,fixa1_onset,fixa1_durat,clue_onset,clue_durat,task_onset,task_durat,word1_onset,word2_onset,word3_onset,word4_onset,word5_onset,word6_onset,word7_onset,word8_onset,word9_onset,word10_onset,word11_onset,word12_onset,word13_onset,word14_onset,word15_onset,word_time,fixa2_onset,fixa2_durat,question1_onset,question1_offset,rating1,rating1_RT,question2_onset,question2_offset,rating2,rating2_RT,question3_onset,question3_offset,rating3,rating3_RT,ori_press_word,press_word,press_word_offset,RT,correct,KeyPress
Block,Number,reading subset,recall subset,condition,trial type,task,fixa,clue,word1,word2,word3,word4,word5,word6,word7,word8,word9,word10,word11,word12,word13,word14,word15,Question1,Question2,Question3,trial_pres_num,fixa1_onset,fixa1_durat,clue_onset,clue_durat,task_onset,task_durat,word1_onset,word2_onset,word3_onset,word4_onset,word5_onset,word6_onset,word7_onset,word8_onset,word9_onset,word10_onset,word11_onset,word12_onset,word13_onset,word14_onset,word15_onset,word_time,fixa2_onset,fixa2_durat,question1_onset,question1_offset,rating1,rating1_RT,question2_onset,question2_offset,rating2,rating2_RT,question3_onset,question3_offset,rating3,rating3_RT,ori_press_word,press_word,press_word_offset,RT,correct,KeyPress
Block,Number,reading subset,recall subset,condition,trial type,task,fixa,clue,word1,word2,word3,word4,word5,word6,word7,word8,word9,word10,word11,word12,word13,word14,word15,Question1,Question2,Question3,trial_pres_num,fixa1_onset,fixa1_durat,clue_onset,clue_durat,task_onset,task_durat,word1_onset,word2_onset,word3_onset,word4_onset,word5_onset,word6_onset,word7_onset,word8_onset,word9_onset,word10_onset,word11_onset,word12_onset,word13_onset,word14_onset,word15_onset,word_time,fixa2_onset,fixa2_durat,question1_onset,question1_offset,rating1,rating1_RT,question2_onset,question2_offset,rating2,rating2_RT,question3_onset,question3_offset,rating3,rating3_RT,ori_press_word,press_word,press_word_offset,RT,correct,KeyPress
Block,Number,reading subset,recall subset,condition,trial type,task,fixa,clue,word1,word2,word3,word4,word5,word6,word7,word8,word9,word10,word11,word12,word13,word14,word15,Question1,Question2,Question3,trial_pres_num,fixa1_onset,fixa1_durat,clue_onset,clue_durat,task_onset,task_durat,word1_onset,word2_onset,word3_onset,word4_onset,word5_onset,word6_onset,word7_onset,word8_onset,word9_onset,word10_onset,word11_onset,word12_onset,word13_onset,word14_onset,word15_onset,word_time,fixa2_onset,fixa2_durat,question1_onset,question1_offset,rating1,rating1_RT,question2_onset,question2_offset,rating2,rating2_RT,question3_onset,question3_offset,rating3,rating3_RT,ori_press_word,press_word,press_word_offset,RT,correct,KeyPress
Block,Number,reading subset,recall subset,condition,trial type,task,fixa,clue,word1,word2,word3,word4,word5,word6,word7,word8,word9,word10,word11,word12,word13,word14,word15,Question1,Question2,Question3,trial_pres_num,fixa1_onset,fixa1_durat,clue_onset,clue_durat,task_onset,task_durat,word1_onset,word2_onset,word3_onset,word4_onset,word5_onset,word6_onset,word7_onset,word8_onset,word9_onset,word10_onset,word11_onset,word12_onset,word13_onset,word14_onset,word15_onset,word_time,fixa2_onset,fixa2_durat,question1_onset,question1_offset,rating1,rating1_RT,question2_onset,question2_offset,rating2,rating2_RT,question3_onset,question3_offset,rating3,rating3_RT,ori_press_word,press_word,press_word_offset,RT,correct,KeyPress
Block,Number,reading subset,recall subset,condition,trial type,task,fixa,clue,word1,word2,word3,word4,word5,word6,word7,word8,word9,word10,word11,word12,word13,word14,word15,Question1,Question2,Question3,trial_pres_num,fixa1_onset,fixa1_durat,clue_onset,clue_durat,task_onset,task_durat,word1_onset,word2_onset,word3_onset,word4_onset,word5_onset,word6_onset,word7_onset,word8_onset,word9_onset,word10_onset,word11_onset,word12_onset,word13_onset,word14_onset,word15_onset,word_time,fixa2_onset,fixa2_durat,question1_onset,question1_offset,rating1,rating1_RT,question2_onset,question2_offset,rating2,rating2_RT,question3_onset,question3_offset,rating3,rating3_RT,ori_press_word,press_word,press_word_offset,RT,correct,KeyPress
1,2,2,,pure reading ,formal trial,reading,+,xxxxx,Emotions,are,thought,to result,from,evolution,because,they,provided,good,solutions to,the problems,that our,ancestors,faced.,How well did you focus on the reading task?,How well did you comprehend this sentence?,How familiar were you with the reading content?,1,0.03405640000710264,2.15,2.1808511999988696,2,4.18026120000286,1,5.180284900008701,5.7843651000002865,6.382511700008763,6.979021499995724,7.583799900006852,8.180134599999292,8.785193500007153,9.381665599998087,9.979017100005876,10.583857999998145,11.18049030000111,11.785195700009353,12.382559200006654,12.978939000007813,13.583775799997966,0.6,14.180388399996446,2.93,17.105736800003797,21.138611400005175,3,4.032,21.14290869999968,25.16019029999734,5,4.018,25.16576360000181,26.632090300001437,3,1.459,,,,,,
Block,Number,reading subset,recall subset,condition,trial type,task,fixa,clue,word1,word2,word3,word4,word5,word6,word7,word8,word9,word10,word11,word12,word13,word14,word15,Question1,Question2,Question3,trial_pres_num,fixa1_onset,fixa1_durat,clue_onset,clue_durat,task_onset,task_durat,word1_onset,word2_onset,word3_onset,word4_onset,word5_onset,word6_onset,word7_onset,word8_onset,word9_onset,word10_onset,word11_onset,word12_onset,word13_onset,word14_onset,word15_onset,word_time,fixa2_onset,fixa2_durat,question1_onset,question1_offset,rating1,rating1_RT,question2_onset,question2_offset,rating2,rating2_RT,question3_onset,question3_offset,rating3,rating3_RT,ori_press_word,press_word,press_word_offset,RT,correct,KeyPress
1,2,2,,pure reading ,formal trial,reading,+,xxxxx,Emotions,are,thought,to result,from,evolution,because,they,provided,good,solutions to,the problems,that our,ancestors,faced.,How well did you focus on the reading task?,How well did you comprehend this sentence?,How familiar were you with the reading content?,1,0.041486399990390055,2.15,2.1901134999934584,2,4.1873561999964295,1,5.188612899990403,5.791634399996838,6.388894399991841,6.986109799996484,7.5905323999904795,8.187572099996032,8.791661899987957,9.391291699997964,9.986230399998021,10.590797999990173,11.187677899986738,11.791880799995852,12.388947200000985,12.986320999989402,13.59209479999845,0.6,14.187696599998162,2.93,17.113157199986745,21.076567399999476,5,3.955,21.11315900000045,21.986504000000423,5,0.865,25.113156899999012,25.798908699987805,3,0.679,,,,,,
1,49,49,25,conflict recall,formal trial,memory recall,+,hug,For,home,"storage,",apples,can be,held for,approximately,two,weeks,when,kept in,the coolest,part of,the,refrigerator.,How well did you focus on the memory recall task?,How vivid was your memory?,How similar was it to your previously generated memory?,2,29.083668299994315,3.0,32.08407479999005,2,34.08429719999549,1,35.08403869999165,35.68123940000078,36.28565649999655,36.88252809998812,37.47984479999286,38.084105599991744,38.6812646999897,39.278773199999705,39.8829482000001,40.48013679998985,41.084349400000065,41.68174809998891,42.2788709999877,42.88268969999626,43.48029079999833,0.6,44.08408159999817,1.58,45.655339799996,48.68135759999859,5,3.02,49.65534109999135,52.07034649999696,3,2.407,53.65533850000065,56.13985199999297,5,2.479,,,,,,
1,74,,50,pure recall,formal trial,memory recall,+,street,xxxxxxxx,xxx,xxxxxxx,xx xxxxxx,xxxx,xxxxxxxxx,xxxxxxx,xxxx,xxxxxxxx,xxxx,xxxxxxxxx xx,xxx xxxxxxxx,xxxx xxx,xxxxxxxxx,xxxxx,How well did you focus on the memory recall task?,How vivid was your memory?,How similar was it to your previously generated memory?,3,57.66094999999041,1.95,59.61309219998657,2,61.61236139999528,1,62.61237119999714,63.20986949998769,63.807084999993094,64.41121539998858,65.0082204999926,65.6123676999996,66.2098391999898,66.80687429998943,67.41158249998989,68.00819439999759,68.6058764999907,69.2095074999961,69.80684149998706,70.41110949999711,71.00828159999219,0.6,71.61262649999117,1.77,73.37262219999684,75.18948779998755,5,1.808,77.37262199999532,78.41130129998783,6,1.031,81.37262029999692,82.51564579999831,2,1.137,,,,,,
Block,Number,reading subset,recall subset,condition,trial type,task,fixa,clue,word1,word2,word3,word4,word5,word6,word7,word8,word9,word10,word11,word12,word13,word14,word15,Question1,Question2,Question3,trial_pres_num,fixa1_onset,fixa1_durat,clue_onset,clue_durat,task_onset,task_durat,word1_onset,word2_onset,word3_onset,word4_onset,word5_onset,word6_onset,word7_onset,word8_onset,word9_onset,word10_onset,word11_onset,word12_onset,word13_onset,word14_onset,word15_onset,word_time,fixa2_onset,fixa2_durat,question1_onset,question1_offset,rating1,rating1_RT,question2_onset,question2_offset,rating2,rating2_RT,question3_onset,question3_offset,rating3,rating3_RT,ori_press_word,press_word,press_word_offset,RT,correct,KeyPress
1,2,2,,pure reading ,formal trial,reading,+,xxxxx,Emotions,are,thought,to result,from,evolution,because,they,provided,good,solutions to,the problems,that our,ancestors,faced.,How well did you focus on the reading task?,How well did you comprehend this sentence?,How familiar were you with the reading content?,1,0.04097870000009607,2.15,2.187060400000064,2,4.1869076000000405,1,5.188393500000075,5.790951500000119,6.38919060000012,6.985489899999948,7.589736700000003,8.186937299999954,8.791165999999976,9.388339000000087,9.98559279999995,10.590565799999922,11.188099100000045,11.791315700000041,12.388440299999957,12.985689300000104,13.590660399999933,0.6,14.187027500000113,2.93,17.112650600000052,21.14561630000003,4,4.032,21.146832099999983,24.993001699999922,5,3.838,25.11265000000003,26.68170340000006,3,1.559,,,,,,
1,49,49,25,conflict recall,formal trial,memory recall,+,hug,For,home,"storage,",apples,can be,held for,approximately,two,weeks,when,kept in,the coolest,part of,the,refrigerator.,How well did you focus on the memory recall task?,How vivid was your memory?,How similar was it to your previously generated memory?,2,29.077522100000124,3.0,32.07655180000006,2,34.07642340000007,1,35.07941200000005,35.67479010000011,36.28024830000004,36.8760956000001,37.47234260000005,38.076683600000024,38.673937499999965,39.27895330000001,39.876211799999965,40.47347910000008,41.07741209999995,41.67496849999998,42.27820550000001,42.87587099999996,43.473556200000075,0.6,44.07771750000006,1.58,45.64919250000003,49.53547290000006,5,3.877,49.64919370000007,50.35477059999994,5,0.696,53.649192300000095,54.64709220000009,5,0.989,,,,,,
1,74,,50,pure recall,formal trial,memory recall,+,street,xxxxxxxx,xxx,xxxxxxx,xx xxxxxx,xxxx,xxxxxxxxx,xxxxxxx,xxxx,xxxxxxxx,xxxx,xxxxxxxxx xx,xxx xxxxxxxx,xxxx xxx,xxxxxxxxx,xxxxx,How well did you focus on the memory recall task?,How vivid was your memory?,How similar was it to your previously generated memory?,3,57.66059300000006,1.95,59.61298620000002,2,61.60580230000005,1,62.60484969999993,63.2088897000001,63.80618040000013,64.4104757,65.00794420000011,65.60574240000005,66.20988680000005,66.80706559999999,67.41057219999993,68.00783090000004,68.60537720000002,69.20949360000009,69.80716929999994,70.41063149999991,71.0088717000001,0.6,71.60592870000005,1.77,73.37226549999991,77.39019030000009,4,4.017,77.39091669999993,81.41120849999993,4,4.02,81.41203109999992,85.4457711,4,4.033,,,,,,
1,22,22,,pure reading ,catch trial,reading,+,xxxx,In many,"countries,",driving,a truck,requires,a special,driving,"license, the",requirements,and,limitations,vary,with,each,jurisdiction.,How well did you focus on the reading task?,How well did you comprehend this sentence?,How familiar were you with the reading content?,4,85.4818064000001,1.15,86.62736930000005,2,88.62738480000007,1,89.62640549999992,90.23067340000011,90.83399480000003,91.43186549999996,92.03007150000008,92.62626490000002,93.23151660000008,93.82775020000008,94.43188750000013,95.03049290000013,95.62636700000007,96.23061849999999,96.82882040000004,97.43322030000013,98.03188900000009,0.6,98.62745670000004,1.13,99.75347650000003,102.07785220000005,6,2.315,103.75347729999999,105.35609709999994,5,1.594,107.75347890000012,111.77348789999996,4,4.019,"countries,",,,,,
1,100,,,letter string,formal trial,xxxxxxxx,+,xxxxx,xxxxxxx,xxx,xxxx xx,x xxxxx,xxxxxx xx,xxxxxx,xxx,xxxxxxxxx,xxxxxxxxx xx,xxx xxxxxxxx,xxxxxxxxxxx,xxxx xx,xxxxxxx,xxx,xxxxxxxx,,,,5,111.79469930000005,2.62,114.41257650000011,2,116.41209780000008,1,117.4112063,118.01058280000007,118.61332149999998,119.21058429999994,119.81656479999992,120.41196130000003,121.00855100000012,121.61268810000001,122.21010920000003,122.81472950000011,123.41243559999998,124.00960439999994,124.61489860000006,125.21244449999995,125.81452130000002,0.6,,,,,,,,,,,,,,,,,,,,
1,26,26,1,conflict reading,formal trial,reading,+,door,Brain,tissue,consumes,a large,amount of,energy in,proportion to,"its volume,",so large,brains,place,severe,metabolic,demands on,animals.,How well did you focus on the reading task?,How well did you comprehend this sentence?,How familiar were you with the reading content?,6,126.28131839999992,1.67,127.94686189999993,2,129.9465431000001,1,130.94707289999997,131.55105720000006,132.1492882,132.7453041000001,133.3504872000001,133.94690020000007,134.5510753000001,135.14894679999998,135.7480740000001,136.34938970000007,136.9472257,137.55123959999992,138.14913120000006,138.74623539999993,139.34965979999993,0.6,139.9467135,1.22,141.16298940000001,145.19141609999997,4,4.027,145.19220429999996,149.21106310000005,4,4.018,149.211814,153.24673810000013,4,4.034,,,,,,
1,94,,70,pure recall,catch trial,memory recall,+,basket,xx xxxx,xxxxxxxxx,xxxxxxx,x xxxxx,xxxxxxxx,x xxxxxxx,xxxxxxx,xxxxxxx xxx,xxxxxxxxxxxx,xxx,xxxxxxxxxxx,xxxx,xxxx,xxxx,xxxxxxxxxxxx,How well did you focus on the memory recall task?,How vivid was your memory?,How similar was it to your previously generated memory?,7,153.28046949999998,1.77,155.05151720000003,2,157.04551160000005,1,158.04632190000007,158.64875810000012,159.2459914000001,159.85015210000006,160.44834830000013,161.04827560000012,161.64910480000003,162.24596850000012,162.85372800000005,163.4482954,164.04625669999996,164.64879169999995,165.24623889999998,165.8527008000001,166.44827740000005,0.6,167.04875659999993,2.18,169.22214050000002,173.25426100000004,4,4.031,173.25495100000012,177.2813539000001,4,4.026,177.28230869999993,181.30991859999995,4,4.027,xxxxxxx,,,,,
1,73,,49,pure recall,formal trial,memory recall,+,relative,xxxxxxx,xxx xxxx,xxxx xxx,xxxxxxxxxxxxx,xx,xxxxxxx,xxxxxxxxxxxx,xxxxxx,xxxxx,xxx xxx,xxx xxxx,xxxxxxxx,xx xxx,xxxxxxxx,xxxxxxx,How well did you focus on the memory recall task?,How vivid was your memory?,How similar was it to your previously generated memory?,8,181.34480830000007,1.44,182.78118040000004,2,184.78206309999996,1,185.7813576000001,186.37945860000013,186.98260359999995,187.57992990000002,188.18628860000013,188.782557,189.38676839999994,189.9839055,190.58179969999992,191.18514989999994,191.7845241,192.3784902,192.9826376000001,193.58009990000005,194.1841505,0.6,194.78146540000012,1.78,196.5564789,200.58183750000012,4,4.024,200.58257359999993,204.60214210000004,4,4.019,204.6028672,208.63020000000006,4,4.027,,,,,,
1,46,46,22,conflict reading,catch trial,reading,+,popcorn,Professors,often,conduct,original,research,and may,mentor and,supervise,graduate,students,conducting,research for,a thesis,or,dissertation.,How well did you focus on the reading task?,How well did you comprehend this sentence?,How familiar were you with the reading content?,9,208.66449880000005,2.55,211.21240549999993,2,213.21344840000006,1,214.21225929999991,214.8096097,215.41378400000008,216.01200859999994,216.6091765000001,217.2123497,217.81248269999992,218.4138084000001,219.01101870000002,219.6081176,220.21379780000007,220.81208489999995,221.4148947000001,222.01106900000013,222.60957150000013,0.6,223.2126052000001,1.03,224.2361714000001,228.2632105,4,4.026,228.2642472,232.29620150000005,4,4.031,232.29698660000008,236.31720969999992,4,4.019,dissertation.,,,,,
1,98,,,letter string,formal trial,xxxxxxxx,+,xxxxx,xxxxx,xxxxxx,xxxxxxxx,x xxxxx,xxxxxx xx,xxxxxx xx,xxxxxxxxxx xx,xxx xxxxxx,xx xxxxx,xxxxxx,xxxxx,xxxxxx,xxxxxxxxx,xxxxxxx xx,xxxxxxx,,,,10,236.3390468,1.64,237.97689390000005,2,239.97690450000005,1,240.9781534000001,241.573977,242.17903990000013,242.7765935,243.3738902,243.97693700000013,244.57420479999996,245.1786105000001,245.7756827999999,246.37298179999993,246.98000539999998,247.57534779999992,248.17864980000013,248.77671950000013,249.3729277,0.6,,,,,,,,,,,,,,,,,,,,
1,27,27,3,conflict reading,formal trial,reading,+,gift,Horses,can,perform a,number of,mental,challenges,that include,food,procurement,and,identification,of individuals,within,a social,system.,How well did you focus on the reading task?,How well did you comprehend this sentence?,How familiar were you with the reading content?,11,249.56052049999994,1.61,251.1647370999999,2,253.1646459000001,1,254.1657256000001,254.77009750000002,255.36595650000004,255.9712674,256.5699101,257.16593869999997,257.7688992000001,258.3672925999999,258.97027219999995,259.5678097,260.16608900000006,260.76999049999995,261.3670972,261.97151110000004,262.5686098000001,0.6,263.1663572,1.13,264.2921927,268.3317753000001,4,4.039,268.33254480000005,272.3593283,4,4.026,272.3600928000001,276.39622729999996,4,4.035,,,,,,
1,53,53,28,conflict recall,formal trial,memory recall,+,ticket,Many,lakes are,artificial,and,constructed for,industrial or,agricultural,"use,",such as,electric,power,generation,or domestic,water,supply.,How well did you focus on the memory recall task?,How vivid was your memory?,How similar was it to your previously generated memory?,12,276.42888429999994,2.63,279.05522999999994,2,281.05479620000006,1,282.05432040000005,282.6594884000001,283.2566999999999,283.8540823000001,284.45819460000007,285.05531910000013,285.6584074,286.25668670000005,286.85281120000013,287.4578386999999,288.05560719999994,288.65962850000005,289.25604640000006,289.85319060000006,290.4580085,0.6,291.0556429999999,1.42,292.4705549,296.49889170000006,4,4.027,296.4996699000001,300.52758259999996,4,4.027,300.528552,304.5556772,4,4.026,,,,,,
1,50,50,26,conflict recall,formal trial,memory recall,+,coffee,A halved,lemon,dipped in,salt or,baking,powder,is,used to,brighten,copper,"cookware,",as,the acid,dissolves,the tarnish.,How well did you focus on the memory recall task?,How vivid was your memory?,How similar was it to your previously generated memory?,13,304.5894336000001,1.75,306.3405497000001,2,308.34038250000003,1,309.3395114,309.9417321000001,310.53383150000013,311.13946269999997,311.73531449999996,312.34065740000005,312.93659649999995,313.5349827,314.1403273000001,314.73541360000013,315.3395221999999,315.9366617999999,316.5349880000001,317.13818420000007,317.73553749999996,0.6,318.3395045,2.02,320.35110540000005,324.38155170000005,4,4.029,324.38247580000007,328.40990149999993,4,4.027,328.41068169999994,332.45150420000004,4,4.04,,,,,,
1,101,,,letter string,formal trial,xxxxxxxx,+,xxxxx,xxxxxxx,xxx xx,xxxxxx,xxxxxx xx,xxxxx,xxxxxx,xx,xxxxxxx,xx xx,xxxxx,xxx,xxxxxxxx,xxxxxxxx,xxxxxxx,xxxxxxx,,,,14,332.47191290000023,1.81,334.2785848000001,2,336.2786838999998,1,337.2779155999999,337.8813068000002,338.4791243000002,339.0770586000001,339.6799314000002,340.27756569999997,340.88199659999987,341.48069929999997,342.0777062999998,342.68113400000016,343.2783224000002,343.8819335999999,344.47903900000006,345.07844580000005,345.6813502000002,0.6,,,,,,,,,,,,,,,,,,,,
1,1,1,,pure reading ,formal trial,reading,+,xxxx,Posters,are also,used for,reproductions,of,"artwork,",particularly,famous,"works,",and are,low-cost,compared,to the,original,artwork.,How well did you focus on the reading task?,How well did you comprehend this sentence?,How familiar were you with the reading content?,15,345.9235964000002,1.23,347.1539316000001,2,349.15403820000006,1,350.15364410000007,350.7513019999999,351.34730909999985,351.9521837,352.54858249999984,353.15411610000024,353.7501983999998,354.3474021999998,354.95151809999993,355.54888800000003,356.1539366999998,356.7512691999998,357.3473646,357.95185270000025,358.5501809,0.6,359.1539258999999,2.88,362.02526620000003,366.04219739999985,4,4.016,366.0430340999999,370.0646776000001,4,4.021,370.0654605000002,374.10045430000014,4,4.034,,,,,,
1,75,,51,pure recall,formal trial,memory recall,+,tree,xxxx xxx,xxxxxxx,xxxx xxx xx,xxxxxxxxxxx,xxxxxx,xxxxxx,xxxxxx xxx,xxxxxx,xxxxxxxx,xxxxx,xxxxxx,xxxxxxx xx,xxxxxxxxx,xxxxxx,xxx xxxxxx,How well did you focus on the memory recall task?,How vivid was your memory?,How similar was it to your previously generated memory?,16,374.13577839999994,1.15,375.2869309,2,377.28570939999986,1,378.28568800000016,378.88308900000015,379.47986259999993,380.08441130000006,380.68146330000013,381.2849226999999,381.88216639999996,382.47974180000006,383.0839618000002,383.6826959000002,384.2854570000002,384.8828853000002,385.47997250000003,386.0856540000002,386.6827550999999,0.6,387.2869693,1.24,388.51744840000015,392.5423524,4,4.024,392.54304960000013,396.5567140999999,4,4.013,396.55746729999987,400.59358480000014,4,4.035,,,,,,
1,76,,52,pure recall,formal trial,memory recall,+,fireplace,xxxxx,xxxxxxxx,xxx xxxx,xxxxxx,xxx,xxxx,xxxx,xxx xxxxx,xx,xxxxxxx,xx xxxx,xxxxxx,xx xxxxx,xxxx,xx xxxx,How well did you focus on the memory recall task?,How vivid was your memory?,How similar was it to your previously generated memory?,17,400.62617350000005,2.2,402.8207269000002,2,404.82210740000005,1,405.8230990999998,406.4252100000001,407.0233264000001,407.6265068,408.2247444000002,408.8208738000001,409.42515530000014,410.02245019999987,410.6272584000001,411.2246716000002,411.8207242000001,412.4261202,413.0223444999999,413.62745100000006,414.2249697,0.6,414.82211110000003,2.09,416.9078452000001,420.9337207000001,4,4.025,420.93454959999985,424.9542167000002,4,4.019,424.9549800000002,428.98804829999995,4,4.032,,,,,,
1,70,70,46,conflict recall,catch trial,memory recall,+,lime,The Oxford,English,Dictionary,remains,the most,comprehensive,and trusted,English,language,"dictionary,",with,revisions,and updates,added every,three months.,How well did you focus on the memory recall task?,How vivid was your memory?,How similar was it to your previously generated memory?,18,429.0228448999999,1.22,430.2393565,2,432.2380329,1,433.23911599999997,433.8434628000002,434.44098959999997,435.04236939999987,435.64455169999997,436.23915969999985,436.84236380000016,437.4395115,438.03661590000024,438.64177589999986,439.2392751,439.8424099000001,440.4395182999999,441.03674579999984,441.6409003000001,0.6,442.2391541999998,2.13,444.36451569999986,448.3912492000002,4,4.026,448.3919091,452.42212810000024,4,4.03,452.4229306,456.4410691999999,4,4.017,remains,,,,,
1,97,,,letter string,formal trial,xxxxxxxx,+,xxxx,xxxxxxx,xxxxx xxxx,xxxxxxx,xxxxxxxxx,xxxx xxx,xxxxxxxxx,xxxxxxxx,xx xxxx,xxxxx,xxx,xxxxxxx,xxxxxxxxxx,xxxxxxxxxx,xxx xxxxxx,xxxxxxx,,,,19,456.46085530000005,2.89,459.3500216,2,461.3496834,1,462.35005890000025,462.9469440999999,463.5510904999999,464.14845089999994,464.7466909000002,465.34981859999994,465.9471520999998,466.5512086000001,467.1485544999998,467.74570329999983,468.34991019999984,468.9471314,469.55259120000005,470.1485991000002,470.7469481999999,0.6,,,,,,,,,,,,,,,,,,,,
1,25,25,2,conflict reading,formal trial,reading,+,party,Windows,often have,movable,coverings,such as,blinds or,curtains,to keep,light,"out,",provide,additional,"insulation,",and ensure,privacy.,How well did you focus on the reading task?,How well did you comprehend this sentence?,How familiar were you with the reading content?,20,470.95432700000015,2.49,473.44226619999995,2,475.44215340000005,1,476.44412420000003,477.04619800000023,477.6478064999999,478.2391291000001,478.8441067000001,479.4405825000001,480.0446330000002,480.6431448000001,481.24020380000024,481.84580029999984,482.44052620000025,483.0449593999999,483.6434499999998,484.24003229999994,484.84414040000024,0.6,485.4414128000001,2.97,488.4059982000001,492.4351806000002,4,4.028,492.4360214999999,496.4618646000001,4,4.025,496.46316060000004,500.4896001999998,4,4.025,,,,,,
Block,Number,reading subset,recall subset,condition,trial type,task,fixa,clue,word1,word2,word3,word4,word5,word6,word7,word8,word9,word10,word11,word12,word13,word14,word15,Question1,Question2,Question3,trial_pres_num,fixa1_onset,fixa1_durat,clue_onset,clue_durat,task_onset,task_durat,word1_onset,word2_onset,word3_onset,word4_onset,word5_onset,word6_onset,word7_onset,word8_onset,word9_onset,word10_onset,word11_onset,word12_onset,word13_onset,word14_onset,word15_onset,word_time,fixa2_onset,fixa2_durat,question1_onset,question1_offset,rating1,rating1_RT,question2_onset,question2_offset,rating2,rating2_RT,question3_onset,question3_offset,rating3,rating3_RT,ori_press_word,press_word,press_word_offset,RT,correct,KeyPress
1,2,2,,pure reading ,formal trial,reading,+,xxxxx,Emotions,are,thought,to result,from,evolution,because,they,provided,good,solutions to,the problems,that our,ancestors,faced.,How well did you focus on the reading task?,How well did you comprehend this sentence?,How familiar were you with the reading content?,1,0.0434751000138931,2.15,2.1948351999744773,2,4.19482999999309,1,5.195128799998201,5.792659699975047,6.3894158999901265,6.993766099971253,7.590710100019351,8.195782899972983,8.792882399982773,9.389435799967032,9.993863700015936,10.590744699991774,11.188662700005807,11.792352499964181,12.391658300010022,12.993797199975234,13.591518500004895,0.6,14.188778800016735,2.93,17.115147200005595,20.59078640001826,3,3.466,21.11514700000407,22.368655300000682,5,1.244,25.11514629999874,29.147123100003228,4,4.031,,,,,,
Block,Number,reading subset,recall subset,condition,trial type,task,fixa,clue,word1,word2,word3,word4,word5,word6,word7,word8,word9,word10,word11,word12,word13,word14,word15,Question1,Question2,Question3,trial_pres_num,fixa1_onset,fixa1_durat,clue_onset,clue_durat,task_onset,task_durat,word1_onset,word2_onset,word3_onset,word4_onset,word5_onset,word6_onset,word7_onset,word8_onset,word9_onset,word10_onset,word11_onset,word12_onset,word13_onset,word14_onset,word15_onset,word_time,fixa2_onset,fixa2_durat,question1_onset,question1_offset,rating1,rating1_RT,question2_onset,question2_offset,rating2,rating2_RT,question3_onset,question3_offset,rating3,rating3_RT,ori_press_word,press_word,press_word_offset,RT,correct,KeyPress
Block,Number,reading subset,recall subset,condition,trial type,task,fixa,clue,word1,word2,word3,word4,word5,word6,word7,word8,word9,word10,word11,word12,word13,word14,word15,Question1,Question2,Question3,trial_pres_num,fixa1_onset,fixa1_durat,clue_onset,clue_durat,task_onset,task_durat,word1_onset,word2_onset,word3_onset,word4_onset,word5_onset,word6_onset,word7_onset,word8_onset,word9_onset,word10_onset,word11_onset,word12_onset,word13_onset,word14_onset,word15_onset,word_time,fixa2_onset,fixa2_durat,question1_onset,question1_offset,rating1,rating1_RT,question2_onset,question2_offset,rating2,rating2_RT,question3_onset,question3_offset,rating3,rating3_RT,ori_press_word,press_word,press_word_offset,RT,correct,KeyPress
Block,Number,reading subset,recall subset,condition,trial type,task,fixa,clue,word1,word2,word3,word4,word5,word6,word7,word8,word9,word10,word11,word12,word13,word14,word15,Question1,Question2,Question3,trial_pres_num,fixa1_onset,fixa1_durat,clue_onset,clue_durat,task_onset,task_durat,word1_onset,word2_onset,word3_onset,word4_onset,word5_onset,word6_onset,word7_onset,word8_onset,word9_onset,word10_onset,word11_onset,word12_onset,word13_onset,word14_onset,word15_onset,word_time,fixa2_onset,fixa2_durat,question1_onset,question1_offset,rating1,rating1_RT,question2_onset,question2_offset,rating2,rating2_RT,question3_onset,question3_offset,rating3,rating3_RT,ori_press_word,press_word,press_word_offset,RT,correct,KeyPress
Block,Number,reading subset,recall subset,condition,trial type,task,fixa,clue,word1,word2,word3,word4,word5,word6,word7,word8,word9,word10,word11,word12,word13,word14,word15,Question1,Question2,Question3,trial_pres_num,fixa1_onset,fixa1_durat,clue_onset,clue_durat,task_onset,task_durat,word1_onset,word2_onset,word3_onset,word4_onset,word5_onset,word6_onset,word7_onset,word8_onset,word9_onset,word10_onset,word11_onset,word12_onset,word13_onset,word14_onset,word15_onset,word_time,fixa2_onset,fixa2_durat,question1_onset,question1_offset,rating1,rating1_RT,question2_onset,question2_offset,rating2,rating2_RT,question3_onset,question3_offset,rating3,rating3_RT,ori_press_word,press_word,press_word_offset,RT,correct,KeyPress
Block,Number,reading subset,recall subset,condition,trial type,task,fixa,clue,word1,word2,word3,word4,word5,word6,word7,word8,word9,word10,word11,word12,word13,word14,word15,Question1,Question2,Question3,trial_pres_num,fixa1_onset,fixa1_durat,clue_onset,clue_durat,task_onset,task_durat,word1_onset,word2_onset,word3_onset,word4_onset,word5_onset,word6_onset,word7_onset,word8_onset,word9_onset,word10_onset,word11_onset,word12_onset,word13_onset,word14_onset,word15_onset,word_time,fixa2_onset,fixa2_durat,question1_onset,question1_offset,rating1,rating1_RT,question2_onset,question2_offset,rating2,rating2_RT,question3_onset,question3_offset,rating3,rating3_RT,ori_press_word,press_word,press_word_offset,RT,correct,KeyPress
Block,Number,reading subset,recall subset,condition,trial type,task,fixa,clue,word1,word2,word3,word4,word5,word6,word7,word8,word9,word10,word11,word12,word13,word14,word15,Question1,Question2,Question3,trial_pres_num,fixa1_onset,fixa1_durat,clue_onset,clue_durat,task_onset,task_durat,word1_onset,word2_onset,word3_onset,word4_onset,word5_onset,word6_onset,word7_onset,word8_onset,word9_onset,word10_onset,word11_onset,word12_onset,word13_onset,word14_onset,word15_onset,word_time,fixa2_onset,fixa2_durat,question1_onset,question1_offset,rating1,rating1_RT,question2_onset,question2_offset,rating2,rating2_RT,question3_onset,question3_offset,rating3,rating3_RT,ori_press_word,press_word,press_word_offset,RT,correct,KeyPress
Block,Number,reading subset,recall subset,condition,trial type,task,fixa,clue,word1,word2,word3,word4,word5,word6,word7,word8,word9,word10,word11,word12,word13,word14,word15,Question1,Question2,Question3,trial_pres_num,fixa1_onset,fixa1_durat,clue_onset,clue_durat,task_onset,task_durat,word1_onset,word2_onset,word3_onset,word4_onset,word5_onset,word6_onset,word7_onset,word8_onset,word9_onset,word10_onset,word11_onset,word12_onset,word13_onset,word14_onset,word15_onset,word_time,fixa2_onset,fixa2_durat,question1_onset,question1_offset,rating1,rating1_RT,question2_onset,question2_offset,rating2,rating2_RT,question3_onset,question3_offset,rating3,rating3_RT,ori_press_word,press_word,press_word_offset,RT,correct,KeyPress
