,trial_num,expression,expr_onset,expr_dura,expr_offset,choice,choi_onset,choi_dura,choi_offset,blank,blank_onset,blank_offset,blank_dura,correct_ans,i_trial_onset,trial_onset,choice_onset,blank_r_onset,RT,correct,KeyPress
0,2,19  +  9,0,1.45,4.45,28        26,4.45,1.45,5.9, ,5.9,6,0.1,1,15.0,15.047165399999358,16.517702899996948,17.98303550000128,None,False,None
1,11,16  +  7,3,1.45,31.45,21        23,31.45,1.45,32.9, ,32.9,33,0.1,2,18.0,18.032696399997803,19.484403000002203,20.95914069999708,None,False,None
2,63,19  +  4,6,1.45,232.45,23        25,232.45,1.45,233.9, ,233.9,234,0.1,1,21.0,21.004651600000216,22.459129000002577,23.926254300000437,None,False,None
3,73,18  +  9,9,1.45,262.45,27        29,262.45,1.45,263.9, ,263.9,264,0.1,1,24.0,24.006133099996077,25.46240179999586,26.929199199999857,None,False,None
4,60,19  +  8,12,1.45,208.45,29        27,208.45,1.45,209.9, ,209.9,210,0.1,2,27.0,26.995460199999798,28.45062450000114,29.918333599998732,None,False,None
5,70,15  +  9,15,1.45,253.45,24        26,253.45,1.45,254.9, ,254.9,255,0.1,1,30.0,29.998227099997166,31.449996700001066,32.91721359999792,None,False,None
6,41,19  +  9,18,1.45,151.45,30        28,151.45,1.45,152.9, ,152.9,153,0.1,2,33.0,32.99863519999781,34.45147139999608,35.9191404000012,None,False,None
7,64,17  +  9,21,1.45,235.45,24        26,235.45,1.45,236.9, ,236.9,237,0.1,2,36.0,35.9991829999999,37.45216799999616,38.91996690000087,None,False,None
8,14,16  +  8,24,1.45,40.45,22        24,40.45,1.45,41.9, ,41.9,42,0.1,2,39.0,39.00139859999763,40.453988299996126,41.92050569999992,None,False,None
9,7,18  +  6,27,1.45,19.45,26        24,19.45,1.45,20.9, ,20.9,21,0.1,2,42.0,42.00272389999736,43.45465759999934,44.92525919999753,None,False,None
10,39,13  +  8,30,1.45,130.45,21        23,130.45,1.45,131.9, ,131.9,132,0.1,1,45.0,45.00349660000211,46.45545819999825,47.92275559999689,None,False,None
11,23,14  +  9,33,1.45,82.45,21        23,82.45,1.45,83.9, ,83.9,84,0.1,2,48.0,48.00468639999599,49.456530999996176,50.924902500002645,None,False,None
12,28,19  +  2,36,1.45,97.45,21        23,97.45,1.45,98.9, ,98.9,99,0.1,1,51.0,51.00461659999564,52.45657889999711,53.924750599995605,None,False,None
13,57,16  +  9,39,1.45,199.45,23        25,199.45,1.45,200.9, ,200.9,201,0.1,2,54.0,54.00498230000085,55.45763050000096,56.92598229999567,None,False,None
14,22,19  +  6,42,1.45,79.45,25        23,79.45,1.45,80.9, ,80.9,81,0.1,1,57.0,57.00629389999813,58.4614425999971,59.92698479999672,None,False,None
15,58,19  +  7,45,1.45,202.45,26        24,202.45,1.45,203.9, ,203.9,204,0.1,1,60.0,60.00722120000137,61.4623197999972,62.92976159999671,None,False,None
16,16,17  +  9,48,1.45,46.45,26        28,46.45,1.45,47.9, ,47.9,48,0.1,1,63.0,63.007920700001705,64.46454219999578,65.93086590000166,None,False,None
17,35,18  +  5,51,1.45,118.45,25        23,118.45,1.45,119.9, ,119.9,120,0.1,2,66.0,65.99853240000084,67.44981060000282,68.917414800002,None,False,None
18,26,16  +  5,54,1.45,91.45,21        19,91.45,1.45,92.9, ,92.9,93,0.1,1,69.0,68.99850570000126,70.45183649999672,71.91809130000183,None,False,None
19,10,17  +  9,57,1.45,28.45,26        28,28.45,1.45,29.9, ,29.9,30,0.1,1,72.0,71.99966909999785,73.45270629999868,74.91950029999862,None,False,None
20,27,18  +  7,60,1.45,94.45,27        25,94.45,1.45,95.9, ,95.9,96,0.1,2,75.0,90.04871930000081,91.49870050000027,92.96688700000232,None,False,None
21,61,19  +  3,63,1.45,226.45,22        24,226.45,1.45,227.9, ,227.9,228,0.1,1,78.0,93.00558109999838,94.46233129999746,95.92771309999807,None,False,None
22,15,17  +  4,66,1.45,43.45,23        21,43.45,1.45,44.9, ,44.9,45,0.1,2,81.0,95.96723889999703,97.42182740000135,98.88903330000176,None,False,None
23,3,14  +  8,69,1.45,7.45,22        20,7.45,1.45,8.9, ,8.9,9,0.1,1,84.0,98.92946980000124,100.37988580000092,101.84884600000078,None,False,None
24,72,18  +  7,72,1.45,259.45,25        23,259.45,1.45,260.9, ,260.9,261,0.1,1,87.0,101.89081720000104,103.34211089999735,104.80977379999968,None,False,None
25,55,18  +  9,75,1.45,193.45,27        25,193.45,1.45,194.9, ,194.9,195,0.1,1,90.0,104.8507077999966,106.30619319999823,107.77298560000054,None,False,None
26,56,15  +  7,78,1.45,196.45,24        22,196.45,1.45,197.9, ,197.9,198,0.1,2,93.0,107.81073789999937,109.26733160000003,110.73230719999992,None,False,None
27,51,18  +  6,81,1.45,181.45,24        22,181.45,1.45,182.9, ,182.9,183,0.1,1,96.0,110.77365309999732,112.22610189999978,113.69360939999751,None,False,None
28,62,14  +  9,84,1.45,229.45,23        25,229.45,1.45,230.9, ,230.9,231,0.1,1,99.0,113.73313069999858,115.18702219999977,116.65274069999577,None,False,None
29,40,18  +  8,87,1.45,133.45,26        24,133.45,1.45,134.9, ,134.9,135,0.1,1,102.0,116.69428940000216,118.15218599999935,119.61854630000016,None,False,None
30,32,18  +  4,90,1.45,109.45,20        22,109.45,1.45,110.9, ,110.9,111,0.1,2,105.0,119.65360289999808,121.111857099997,122.57732559999567,None,False,None
31,49,19  +  2,93,1.45,175.45,21        23,175.45,1.45,176.9, ,176.9,177,0.1,1,108.0,122.61887320000096,124.07018899999821,125.53719239999918,None,False,None
